Sample : 
Scan number: 4586

Wavelength: 532
Polarization :   
Power: 0
Mirror sp. : 8
Ch. duration : 9.172
Scan amplitude : 49.31



587175
287614
616842
1564058
1213856
1769020
1948372
1461173
1679430
534108
355329
260481
62139
33965
25300
10144
4575
5722
3099
826
1193
645
221
209
150
90
54
56
47
33
37
17
32
17
9
18
22
5
11
11
8
8
19
17
14
8
8
7
10
15
6
19
8
13
13
18
18
22
39
42
51
57
50
51
40
43
44
41
43
40
47
53
63
64
62
41
30
24
26
14
14
12
12
13
10
4
11
10
20
16
27
24
18
31
22
27
34
31
34
40
51
49
64
73
90
94
97
112
155
204
225
296
483
737
816
1526
2900
3921
6342
15987
27222
38846
114977
285889
409767
1229081
1833900
2162814
2730020
2023438
1709083
955129
445493
326603
129330
39347
28632
16176
8308
5849
4120
2185
1309
959
444
272
204
149
93
72
48
50
43
40
31
27
14
13
18
16
21
14
13
23
14
6
7
12
7
9
13
12
7
8
13
7
9
10
19
24
24
29
37
41
55
48
54
50
51
51
39
47
39
45
37
54
59
55
54
51
46
36
24
26
10
12
13
10
17
9
9
14
11
12
23
16
14
31
21
25
22
34
41
43
34
47
60
59
61
75
103
95
147
150
178
235
263
353
499
753
1025
1713
2875
4357
7789
16228
26609
48589
117489
252528
501414
1257323
1800937
2248798
2763561
2165029
