Sample : 
Scan number: 1852

Wavelength: 532
Polarization :   
Power: 0
Mirror sp. : 8
Ch. duration : 3.704
Scan amplitude : 49.31



1292086
946300
1460602
2602959
2147305
2657263
1528303
1234080
714570
92751
60087
29937
7300
4043
3171
1190
587
688
346
140
145
117
67
55
41
35
29
22
20
16
20
14
20
15
11
13
13
13
9
6
11
4
7
12
10
11
8
7
11
17
18
25
29
20
62
82
84
135
139
155
178
128
115
90
80
106
115
146
142
154
158
163
135
118
65
58
42
40
31
21
13
12
9
8
16
10
12
11
13
9
9
6
18
14
8
14
14
10
19
24
17
18
24
31
34
31
41
66
69
104
158
164
291
429
603
991
1885
2824
5000
13215
26036
45875
166261
452230
752517
1677193
2164294
2482483
3087599
2748575
2255512
1103429
362240
197377
62563
19854
11969
6001
2441
1489
1009
589
360
258
179
141
113
74
52
44
35
27
25
16
15
19
20
8
15
16
12
12
7
10
7
4
9
11
14
14
11
12
15
6
11
15
18
21
26
34
56
71
85
129
164
159
154
152
128
115
87
90
106
111
122
150
150
160
135
125
85
56
50
37
23
20
17
20
24
18
13
15
7
14
10
9
10
12
10
13
9
6
14
17
14
14
15
19
17
24
27
20
36
50
48
73
93
129
187
263
349
571
844
1357
2283
4449
8047
15348
38252
88053
202872
592699
1202376
1787227
2303475
2783275
